File: lab session.txt
Load (N)	Time (s)	Extension (mm)

0.22	0	-0.97139
-0.17	0.1	-0.97139
2.6	0.4	-0.9671
2.71	0.6	-0.96014
3.98	0.8	-0.95022
-0.5	1	-0.94379
1.21	1.2	-0.93655
-0.72	1.4	-0.93066
-0.17	1.6	-0.9253
0.11	1.8	-0.9194
0.28	2	-0.91297
0.77	2.2	-0.90681
1.1	2.4	-0.90037
-0.17	2.6	-0.891
-0.11	2.8	-0.88269
-0.22	3	-0.87545
-0.22	3.2	-0.87143
1.38	3.4	-0.86554
3.26	3.6	-0.85937
2.6	3.8	-0.85294
3.92	4	-0.84678
3.92	4.2	-0.84061
3.76	4.4	-0.83177
2.54	4.6	-0.82212
1.16	4.8	-0.81516
1.16	5	-0.81114
3.2	5.2	-0.80524
4.09	5.4	-0.79934
5.25	5.6	-0.79318
5.74	5.8	-0.78675
4.36	6	-0.78085
5.14	6.2	-0.77228
3.98	6.4	-0.76102
0.99	6.6	-0.75405
0.88	6.8	-0.75004
3.92	7	-0.74468
4.53	7.2	-0.73905
5.19	7.4	-0.73288
6.02	7.6	-0.72672
6.52	7.8	-0.72056
5.58	8	-0.71252
5.36	8.2	-0.70099
-1.55	8.4	-0.69269
-1.38	8.6	-0.6892
0.55	8.8	-0.68518
2.37	9	-0.67902
1.21	9.2	-0.67312
2.32	9.4	-0.66669
2.6	9.6	-0.66053
2.93	9.8	-0.65383
0.99	10	-0.64338
1.1	10.2	-0.63695
1.82	10.4	-0.63078
0.99	10.6	-0.62435
1.88	10.8	-0.61899
2.37	11	-0.61309
1.71	11.2	-0.60666
3.26	11.4	-0.6005
1.77	11.6	-0.59407
2.6	11.8	-0.58415
-0.99	12	-0.57692
1.1	12.2	-0.56995
-1.55	12.4	-0.56432
0.33	12.6	-0.55869
-0.28	12.8	-0.5528
0.28	13	-0.54663
0.22	13.2	-0.5402
-0.11	13.4	-0.53377
0.5	13.6	-0.52412
-0.17	13.8	-0.51555
-0.22	14	-0.50858
0.11	14.2	-0.50483
1.99	14.4	-0.49867
2.6	14.6	-0.49277
3.15	14.8	-0.48661
3.53	15	-0.48017
4.92	15.2	-0.47374
3.81	15.4	-0.4649
2.6	15.6	-0.45472
1.16	15.8	-0.44802
2.1	16	-0.44426
3.92	16.2	-0.43864
5.19	16.4	-0.43274
5.14	16.6	-0.42658
5.36	16.8	-0.42041
5.58	17	-0.41398
4.42	17.2	-0.40541
3.98	17.4	-0.39415
-0.17	17.6	-0.38772
0.11	17.8	-0.38316
4.69	18	-0.37834
5.36	18.2	-0.37271
5.36	18.4	-0.36655
5.36	18.6	-0.36012
5.52	18.8	-0.35395
6.46	19	-0.34591
5.36	19.2	-0.33466
-1.49	19.4	-0.32715
-0.11	19.6	-0.3234
0.72	19.8	-0.31804
2.15	20	-0.31268
1.21	20.2	-0.30652
2.37	20.4	-0.30036
2.6	20.6	-0.29419
2.1	20.8	-0.28696
1.38	21	-0.27597
0.77	21.2	-0.26605
1.21	21.4	-0.26257
1.21	21.6	-0.25855
1.88	21.8	-0.25239
2.6	22	-0.24622
2.54	22.2	-0.24006
2.6	22.4	-0.23416
2.93	22.6	-0.22693
1.82	22.8	-0.21728
-0.17	23	-0.21031
0.5	23.2	-0.20415
0.5	23.4	-0.19772
0.61	23.6	-0.19236
1.6	23.8	-0.18619
2.6	24	-0.17976
3.64	24.2	-0.1736
3.98	24.4	-0.1669
2.76	24.6	-0.15725
2.71	24.8	-0.14948
3.81	25	-0.14385
5.91	25.2	-0.13715
8.45	25.4	-0.13206
9.33	25.6	-0.12617
9.11	25.8	-0.11973
10.05	26	-0.11357
11.82	26.2	-0.10741
10.38	26.4	-0.09803
9.5	26.6	-0.08999
10.49	26.8	-0.08275
9.78	27	-0.0782
13.31	27.2	-0.07203
13.64	27.4	-0.06587
15.08	27.6	-0.05997
15.19	27.8	-0.05354
14.8	28	-0.04738
17.12	28.2	-0.0388
16.4	28.4	-0.02755
13.42	28.6	-0.02085
14.75	28.8	-0.0171
18.89	29	-0.01147
19.22	29.2	-0.00584
19.99	29.4	0.00032
22.09	29.6	0.00649
24.69	29.8	0.01265
28.83	30	0.02042
33.36	30.2	0.03194
32.75	30.4	0.03918
37.06	30.6	0.0432
42.08	30.8	0.04829
47.77	31	0.05392
50.86	31.2	0.06008
55.01	31.4	0.06651
60.36	31.6	0.07241
64.95	31.8	0.08018
70.19	32	0.08983
76.49	32.2	0.09787
81.02	32.4	0.1035
86.1	32.6	0.10832
91.84	32.8	0.11368
96.32	33	0.12011
100.57	33.2	0.12654
105.76	33.4	0.13244
111.39	33.6	0.13967
118.02	33.8	0.15013
120.78	34	0.15977
126.19	34.2	0.16379
130.5	34.4	0.16862
134.42	34.6	0.17398
139.61	34.8	0.18068
146.41	35	0.18657
150.99	35.2	0.19274
154.47	35.4	0.19997
161.15	35.6	0.20935
169.21	35.8	0.21632
174.3	36	0.22275
180.37	36.2	0.22811
184.73	36.4	0.23401
189.21	36.6	0.2399
194.56	36.8	0.24633
200.86	37	0.25276
203.9	37.2	0.25893
210.8	37.4	0.26858
219.47	37.6	0.27796
222.45	37.8	0.28305
227.53	38	0.28894
233.11	38.2	0.29403
238.97	38.4	0.29993
244.05	38.6	0.30636
246.97	38.8	0.31253
253.71	39	0.31896
258.9	39.2	0.3278
265.14	39.4	0.33772
269.06	39.6	0.34281
274.53	39.8	0.3487
280.39	40	0.35433
285.52	40.2	0.35996
289.39	40.4	0.36639
295.46	40.6	0.37255
300.76	40.8	0.37872
306.84	41	0.38756
311.81	41.2	0.39721
313.36	41.4	0.40444
317.88	41.6	0.40873
324.84	41.8	0.41409
329.15	42	0.41999
332.52	42.2	0.42615
338.98	42.4	0.43258
344.67	42.6	0.43848
348.65	42.8	0.44652
355.27	43	0.45697
361.46	43.2	0.4634
366.81	43.4	0.4693
370.07	43.6	0.47439
375.26	43.8	0.48002
379.41	44	0.48618
383.99	44.2	0.49261
390.07	44.4	0.49851
394.15	44.6	0.50601
401.17	44.8	0.51593
404.81	45	0.52263
409.78	45.2	0.52986
413.98	45.4	0.53468
418.07	45.6	0.54031
423.64	45.8	0.54648
429.11	46	0.55264
434.36	46.2	0.55854
438.72	46.4	0.56577
444.68	46.6	0.57542
453.96	46.8	0.58346
459.1	47	0.59016
463.19	47.2	0.59471
468.54	47.4	0.60007
473.18	47.6	0.60624
477.76	47.8	0.6124
483.62	48	0.61856
488.26	48.2	0.62526
493.89	48.4	0.63464
500.9	48.6	0.64322
505.99	48.8	0.64965
509.3	49	0.65447
515.37	49.2	0.6601
518.96	49.4	0.666
524.16	49.6	0.67243
528.41	49.8	0.67832
534.21	50	0.68502
538.02	50.2	0.69467
544.98	50.4	0.70298
550.5	50.6	0.70995
555.91	50.8	0.71477
558.78	51	0.7204
562.98	51.2	0.72603
567.51	51.4	0.73219
572.09	51.6	0.73835
576.79	51.8	0.74478
581.43	52	0.75336
586.73	52.2	0.76328
587.89	52.4	0.76917
593.24	52.6	0.7748
596.23	52.8	0.78016
601.2	53	0.78605
604.95	53.2	0.79222
609.54	53.4	0.79865
613.51	53.6	0.80455
618.15	53.8	0.81259
624.56	54	0.8225
629.36	54.2	0.82947
632.62	54.4	0.8351
636.93	54.6	0.84019
641.57	54.8	0.84608
643.83	55	0.85198
648.36	55.2	0.85841
651.62	55.4	0.86431
656.86	55.6	0.87208
662.39	55.8	0.88173
665.31	56	0.88923
669.24	56.2	0.89512
672.22	56.4	0.90048
675.64	56.6	0.90611
678.79	56.8	0.91228
682.66	57	0.91844
685.86	57.2	0.92433
689.67	57.4	0.93157
693.98	57.6	0.94122
701.65	57.8	0.94926
704.86	58	0.95515
706.9	58.2	0.96051
710.54	58.4	0.96641
713.75	58.6	0.9723
717.61	58.8	0.97847
721.04	59	0.98463
722.92	59.2	0.99106
728.11	59.4	1.00071
730.1	59.6	1.00929
733.63	59.8	1.01545
736.94	60	1.02054
739.76	60.2	1.02644
741.58	60.4	1.03233
745.23	60.6	1.0385
747.1	60.8	1.04466
751.08	61	1.05082
753.46	61.2	1.05967
757.38	61.4	1.06878
759.86	61.6	1.07548
762.57	61.8	1.08084
764.39	62	1.0862
766.1	62.2	1.09209
770.41	62.4	1.09826
771.63	62.6	1.10442
774.39	62.8	1.11058
777.48	63	1.11862
780.63	63.2	1.12827
780.52	63.4	1.13524
783.28	63.6	1.1406
786.87	63.8	1.14623
790.24	64	1.15185
794.93	64.2	1.15802
797.58	64.4	1.16445
802	64.6	1.17035
806.09	64.8	1.17838
811.55	65	1.18857
817.79	65.2	1.19527
819.89	65.4	1.20063
823.93	65.6	1.20599
826.36	65.8	1.21188
830.5	66	1.21831
831.16	66.2	1.22448
835.8	66.4	1.23037
838.56	66.6	1.23815
844.75	66.8	1.24779
848.61	67	1.2553
851.32	67.2	1.26092
853.42	67.4	1.26602
857.17	67.6	1.27164
859.99	67.8	1.27807
863.8	68	1.28451
865.9	68.2	1.2904
869.43	68.4	1.29764
874.62	68.6	1.30755
883.07	68.8	1.31532
886.22	69	1.32122
887.93	69.2	1.32631
891.36	69.4	1.33194
894.12	69.6	1.3381
896.93	69.8	1.34427
901.35	70	1.35043
903.62	70.2	1.35713
908.97	70.4	1.36705
913.45	70.6	1.37535
916.71	70.8	1.38125
919.36	71	1.38634
922.95	71.2	1.39197
925.32	71.4	1.39786
927.53	71.6	1.4043
931.56	71.8	1.41046
933.33	72	1.41662
937.31	72.2	1.42627
942.66	72.4	1.43511
947.08	72.6	1.44128
948.63	72.8	1.44637
952.16	73	1.45173
955.09	73.2	1.45762
958.57	73.4	1.46379
960.56	73.6	1.47022
963.81	73.8	1.47638
968.12	74	1.48523
970.83	74.2	1.49434
971.77	74.4	1.50131
974.47	74.6	1.50667
976.79	74.8	1.51203
978.61	75	1.51765
982.43	75.2	1.52382
986.29	75.4	1.52998
988.11	75.6	1.53614
992.03	75.8	1.54445
994.74	76	1.55464
1000.21	76.2	1.5616
1002.14	76.4	1.56669
1004.46	76.6	1.57205
1004.96	76.8	1.57768
1008.88	77	1.58385
1010.7	77.2	1.59028
1013.74	77.4	1.59617
1016.22	77.6	1.60368
1021.53	77.8	1.61359
1023.4	78	1.62136
1026.77	78.2	1.62699
1028.87	78.4	1.63208
1030.91	78.6	1.63798
1032.41	78.8	1.64387
1035.33	79	1.65004
1037.43	79.2	1.6562
1040.14	79.4	1.66317
1044.89	79.6	1.67308
1051.51	79.8	1.68139
1055.66	80	1.68702
1056.21	80.2	1.69211
1058.14	80.4	1.69774
1061.01	80.6	1.7039
1064.22	80.8	1.7098
1066.92	81	1.71596
1068.19	81.2	1.72266
1071.67	81.4	1.73258
1077.91	81.6	1.74142
1080.34	81.8	1.74732
1081.83	82	1.75214
1084.82	82.2	1.75777
1084.76	82.4	1.76366
1087.3	82.6	1.76983
1090.5	82.8	1.77626
1091.94	83	1.78242
1096.25	83.2	1.79207
1100.83	83.4	1.80091
1105.3	83.6	1.80708
1107.07	83.8	1.81217
1109.61	84	1.8178
1111.82	84.2	1.82369
1112.65	84.4	1.82986
1114.69	84.6	1.83575
1117.56	84.8	1.84218
1120.44	85	1.85103
1123.92	85.2	1.86041
1123.36	85.4	1.86737
1127.17	85.6	1.87247
1127.84	85.8	1.87783
1129	86	1.88372
1131.59	86.2	1.88988
1133.64	86.4	1.89605
1133.75	86.6	1.90221
1137.5	86.8	1.91079
1142.69	87	1.92043
1144.79	87.2	1.9274
1146.95	87.4	1.93276
1147.33	87.6	1.93839
1150.87	87.8	1.94402
1152.69	88	1.95018
1154.07	88.2	1.95608
1155.39	88.4	1.96224
1158.21	88.6	1.96974
1163.57	88.8	1.97993
1163.95	89	1.98743
1166.38	89.2	1.99306
1168.43	89.4	1.99815
1169.2	89.6	2.00378
1171.85	89.8	2.00994
1172.57	90	2.01611
1175.77	90.2	2.02227
1178.92	90.4	2.02924
1181.74	90.6	2.03942
1187.15	90.8	2.04719
1188.7	91	2.05336
1190.91	91.2	2.05845
1193.72	91.4	2.06381
1194.11	91.6	2.06997
1194.77	91.8	2.0764
1197.7	92	2.08257
1199.08	92.2	2.089
1202.83	92.4	2.09891
1207.75	92.6	2.10749
1210.62	92.8	2.11338
1212	93	2.11874
1213.66	93.2	2.12437
1213.55	93.4	2.13
1216.14	93.6	2.13643
1217.52	93.8	2.14259
1219.29	94	2.14903
1221.72	94.2	2.15787
1227.41	94.4	2.16698
1230.06	94.6	2.17341
1232.66	94.8	2.17877
1232.77	95	2.18413
1233.49	95.2	2.19003
1236.69	95.4	2.19646
1238.23	95.6	2.20262
1238.29	95.8	2.20879
1241.11	96	2.21736
1245.69	96.2	2.22674
1245.03	96.4	2.23344
1247.95	96.6	2.2388
1246.79	96.8	2.24416
1249.34	97	2.25006
1251.88	97.2	2.25649
1253.04	97.4	2.26265
1255.3	97.6	2.26882
1256.13	97.8	2.27712
1259.66	98	2.28677
1262.64	98.2	2.29347
1265.85	98.4	2.29883
1264.52	98.6	2.30419
1267.34	98.8	2.31009
1268.44	99	2.31625
1271.59	99.2	2.32268
1271.65	99.4	2.32858
1275.4	99.6	2.33635
1279.1	99.8	2.34653
1279.65	100	2.3535
1281.09	100.2	2.35886
1281.42	100.4	2.36422
1283.74	100.6	2.36985
1284.74	100.8	2.37628
1286.94	101	2.38271
1288.16	101.2	2.3886
1289.15	101.4	2.39611
1292.69	101.6	2.40629
1298.05	101.8	2.4138
1300.14	102	2.41942
1300.48	102.2	2.42451
1303.02	102.4	2.43014
1303.18	102.6	2.43631
1304.56	102.8	2.44274
1307.16	103	2.4489
1307.82	103.2	2.45587
1310.31	103.4	2.46578
1316.82	103.6	2.47382
1315.77	103.8	2.47945
1316.82	104	2.48454
1318.48	104.2	2.49017
1318.81	104.4	2.49633
1317.87	104.6	2.5025
1320.91	104.8	2.50866
1320.08	105	2.51536
1322.07	105.2	2.52501
1319.75	105.4	2.53466
1155.45	105.6	2.53975
1163.68	105.8	2.54511
1163.62	106	2.55074
1165.78	106.2	2.55663
1167.43	106.4	2.56279
1171.19	106.6	2.56896
1172.46	106.8	2.57539
1175.94	107	2.58531
1179.25	107.2	2.59388
1179.47	107.4	2.60031
1181.19	107.6	2.6054
1183.01	107.8	2.61076
1185.77	108	2.61666
1186.98	108.2	2.62309
1188.92	108.4	2.62926
1191.35	108.6	2.63542
1194.94	108.8	2.64426
1196.76	109	2.65364
1199.96	109.2	2.66061
1200.96	109.4	2.6657
1203.28	109.6	2.67106
1202.78	109.8	2.67669
1206.2	110	2.68285
1207.2	110.2	2.68902
1208.14	110.4	2.69518
1210.68	110.6	2.70322
1215.65	110.8	2.71313
1214.98	111	2.72037
1217.52	111.2	2.72573
1219.51	111.4	2.73109
1221.72	111.6	2.73672
1224.43	111.8	2.74261
1226.91	112	2.74904
1229.84	112.2	2.75494
1232.21	112.4	2.76271
1235.14	112.6	2.77316
1239.73	112.8	2.7804
1241.16	113	2.78576
1243.37	113.2	2.79112
1245.69	113.4	2.79675
1239.89	113.6	2.80291
1241.88	113.8	2.80907
1242.93	114	2.81497
1246.08	114.2	2.8222
1251.88	114.4	2.83239
1256.74	114.6	2.84016
1256.96	114.8	2.84579
1259	115	2.85088
1262.59	115.2	2.85651
1261.98	115.4	2.8624
1262.76	115.6	2.86883
1263.03	115.8	2.87473
1267.23	116	2.8817
1270.49	116.2	2.89134
1274.19	116.4	2.89992
1275.13	116.6	2.90582
1275.62	116.8	2.91091
1276.95	117	2.91627
1279.6	117.2	2.92243
1279.6	117.4	2.92859
1281.59	117.6	2.93476
1282.47	117.8	2.94092
1285.12	118	2.95057
1286.45	118.2	2.95968
1285.23	118.4	2.96584
1286.61	118.6	2.97094
1287.11	118.8	2.9763
1288.33	119	2.98219
1289.37	119.2	2.98862
1290.98	119.4	2.99452
1292.96	119.6	3.00068
1294.07	119.8	3.00979
1297.05	120	3.01944
1296.94	120.2	3.02587
1297.66	120.4	3.03123
1298.87	120.6	3.03659
1298.98	120.8	3.04249
1299.2	121	3.04865
1300.31	121.2	3.05482
1301.63	121.4	3.06098
1300.92	121.6	3.06929
1302.79	121.8	3.0792
1205.93	122	3.09046
407.07	122.2	3.09394
448.11	122.4	3.0993
448.33	122.6	3.1052
449.93	122.8	3.11163
451.04	123	3.11752
451.26	123.2	3.12422
450.43	123.4	3.13307
440.43	123.6	3.14245
420.11	123.8	3.14915
420.55	124	3.15424
422.32	124.2	3.1596
423.7	124.4	3.16576
426.18	124.6	3.17166
427.23	124.8	3.17782
429.22	125	3.18398
430.16	125.2	3.19256
431.54	125.4	3.20194
402.88	125.6	3.20891
396.42	125.8	3.21427
398.68	126	3.21989
401.44	126.2	3.22552
402.66	126.4	3.23169
405.64	126.6	3.23812
406.91	126.8	3.24401
406.41	127	3.25178
407.13	127.2	3.26116
403.71	127.4	3.26894
366.21	127.6	3.27456
369.63	127.8	3.27992
371.23	128	3.28555
372.61	128.2	3.29198
373.88	128.4	3.29815
375.43	128.6	3.30431
379.02	128.8	3.31154
378.47	129	3.32173
376.81	129.2	3.32923
377.97	129.4	3.33486
369.13	129.6	3.34022
360.19	129.8	3.34585
362.84	130	3.35201
363.61	130.2	3.35844
366.32	130.4	3.36434
366.7	130.6	3.37157
368.47	130.8	3.38122
370.07	131	3.38926
371.62	131.2	3.39489
373.55	131.4	3.39998
374.05	131.6	3.40561
355.66	131.8	3.41204
356.05	132	3.4182
357.54	132.2	3.4241
359.3	132.4	3.43133
360.19	132.6	3.44098
360.41	132.8	3.44902
361.57	133	3.45492
364.11	133.2	3.46028
363.89	133.4	3.4659
363.61	133.6	3.47207
364.83	133.8	3.4785
340.2	134	3.48466
339.42	134.2	3.49136
338.1	134.4	3.50101
340.47	134.6	3.50959
341.41	134.8	3.51521
343.56	135	3.52084
345	135.2	3.5262
345	135.4	3.5321
301.54	135.6	3.5388
276.91	135.8	3.54469
279.06	136	3.55139
282.37	136.2	3.5605
281.21	136.4	3.56988
284.25	136.6	3.57524
284.25	136.8	3.58087
286.52	137	3.58623
285.91	137.2	3.59239
289	137.4	3.59856
279.34	137.6	3.60472
274.81	137.8	3.61115
275.97	138	3.62
276.35	138.2	3.62964
277.02	138.4	3.63581
278.67	138.6	3.64117
280.83	138.8	3.64653
281.32	139	3.65242
282.87	139.2	3.65859
284.09	139.4	3.66475
285.36	139.6	3.67091
273.21	139.8	3.67949
270.28	140	3.68967
266.52	140.2	3.6953
270.06	140.4	3.70119
271.05	140.6	3.70655
272.49	140.8	3.71245
273.26	141	3.71861
274.97	141.2	3.72478
276.08	141.4	3.73094
277.35	141.6	3.73844
277.96	141.8	3.74863
277.73	142	3.75586
271.6	142.2	3.76149
254.32	142.4	3.76685
256.64	142.6	3.77275
257.52	142.8	3.77864
259.18	143	3.78481
260.56	143.2	3.79097
260.78	143.4	3.79794
262.44	143.6	3.80812
261.06	143.8	3.81589
262.05	144	3.82206
263.04	144.2	3.82688
263.54	144.4	3.83278
264.04	144.6	3.83867
264.92	144.8	3.8451
266.69	145	3.85127
254.43	145.2	3.85797
245.59	145.4	3.86815
249.96	145.6	3.87699
250.29	145.8	3.88182
252	146	3.88744
253.1	146.2	3.89307
254.04	146.4	3.89897
253.93	146.6	3.90513
257.85	146.8	3.9113
258.02	147	3.91799
257.96	147.2	3.92764
259.01	147.4	3.93649
259.84	147.6	3.94211
260.95	147.8	3.94721
262.93	148	3.9531
262.33	148.03	3.9539